{
  "resourceType": "Bundle",
  "id": "family-planning-encounter-bundle",
  "meta": {
    "versionId": "1",
    "lastUpdated": "2025-01-15T10:30:00Z",
    "profile": [
      "http://hl7.org/fhir/StructureDefinition/Bundle"
    ]
  },
  "type": "collection",
  "timestamp": "2025-01-15T10:30:00Z",
  "entry": [
    {
      "fullUrl": "urn:uuid:patient-sarah-johnson",
      "resource": {
        "resourceType": "Patient",
        "id": "patient-sarah-johnson",
        "meta": {
          "profile": [
            "http://hl7.org/fhir/us/core/StructureDefinition/us-core-patient"
          ]
        },
        "identifier": [
          {
            "use": "usual",
            "type": {
              "coding": [
                {
                  "system": "http://terminology.hl7.org/CodeSystem/v2-0203",
                  "code": "MR",
                  "display": "Medical Record Number"
                }
              ]
            },
            "system": "http://seattle-family-planning-clinic.org/patient-id",
            "value": "FP2025001"
          },
          {
            "use": "official",
            "type": {
              "coding": [
                {
                  "system": "http://terminology.hl7.org/CodeSystem/v2-0203",
                  "code": "SS",
                  "display": "Social Security Number"
                }
              ]
            },
            "system": "http://hl7.org/fhir/sid/us-ssn",
            "value": "123-45-6789"
          }
        ],
        "active": true,
        "name": [
          {
            "use": "official",
            "family": "Johnson",
            "given": [
              "Sarah"
            ]
          }
        ],
        "telecom": [
          {
            "system": "phone",
            "value": "(206) 555-0123",
            "use": "home"
          }
        ],
        "gender": "female",
        "birthDate": "2001-03-15",
        "address": [
          {
            "use": "home",
            "line": [
              "123 Main Street"
            ],
            "city": "Seattle",
            "state": "WA",
            "postalCode": "98101",
            "country": "US"
          }
        ]
      }
    },
    {
      "fullUrl": "urn:uuid:practitioner-fp-provider",
      "resource": {
        "resourceType": "Practitioner",
        "id": "practitioner-fp-provider",
        "identifier": [
          {
            "use": "official",
            "type": {
              "coding": [
                {
                  "system": "http://terminology.hl7.org/CodeSystem/v2-0203",
                  "code": "NPI",
                  "display": "National Provider Identifier"
                }
              ]
            },
            "system": "http://hl7.org/fhir/sid/us-npi",
            "value": "1234567890"
          }
        ],
        "active": true,
        "name": [
          {
            "use": "official",
            "family": "Provider",
            "given": [
              "Family Planning"
            ]
          }
        ],
        "qualification": [
          {
            "code": {
              "coding": [
                {
                  "system": "http://terminology.hl7.org/CodeSystem/v2-0360",
                  "code": "MD",
                  "display": "Doctor of Medicine"
                }
              ]
            }
          }
        ]
      }
    },
    {
      "fullUrl": "urn:uuid:organization-seattle-fp-clinic",
      "resource": {
        "resourceType": "Organization",
        "id": "organization-seattle-fp-clinic",
        "identifier": [
          {
            "use": "official",
            "type": {
              "coding": [
                {
                  "system": "http://terminology.hl7.org/CodeSystem/v2-0203",
                  "code": "NPI",
                  "display": "National Provider Identifier"
                }
              ]
            },
            "system": "http://hl7.org/fhir/sid/us-npi",
            "value": "1234567890"
          }
        ],
        "active": true,
        "type": [
          {
            "coding": [
              {
                "system": "http://terminology.hl7.org/CodeSystem/organization-type",
                "code": "prov",
                "display": "Healthcare Provider"
              }
            ]
          }
        ],
        "name": "Seattle Family Planning Clinic",
        "address": [
          {
            "use": "work",
            "line": [
              "456 Healthcare Ave"
            ],
            "city": "Seattle",
            "state": "WA",
            "postalCode": "98102",
            "country": "US"
          }
        ]
      }
    },
    {
      "fullUrl": "urn:uuid:coverage-family-planning-only",
      "resource": {
        "resourceType": "Coverage",
        "id": "coverage-family-planning-only",
        "status": "active",
        "type": {
          "coding": [
            {
              "system": "http://terminology.hl7.org/CodeSystem/v3-ActCode",
              "code": "PUBLICPOL",
              "display": "Public Healthcare Program"
            }
          ],
          "text": "Family Planning Only Program"
        },
        "subscriber": {
          "reference": "urn:uuid:patient-sarah-johnson"
        },
        "beneficiary": {
          "reference": "urn:uuid:patient-sarah-johnson"
        },
        "period": {
          "start": "2025-01-01",
          "end": "2025-12-31"
        },
        "payor": [
          {
            "display": "Washington State Health Care Authority"
          }
        ],
        "class": [
          {
            "type": {
              "coding": [
                {
                  "system": "http://terminology.hl7.org/CodeSystem/coverage-class",
                  "code": "plan",
                  "display": "Plan"
                }
              ]
            },
            "value": "Family Planning Only",
            "name": "Washington Apple Health Family Planning Only Program"
          }
        ]
      }
    },
    {
      "fullUrl": "urn:uuid:encounter-family-planning-visit",
      "resource": {
        "resourceType": "Encounter",
        "id": "encounter-family-planning-visit",
        "status": "finished",
        "class": {
          "system": "http://terminology.hl7.org/CodeSystem/v3-ActCode",
          "code": "AMB",
          "display": "ambulatory"
        },
        "type": [
          {
            "coding": [
              {
                "system": "http://snomed.info/sct",
                "code": "439708006",
                "display": "Family planning visit"
              }
            ]
          }
        ],
        "subject": {
          "reference": "urn:uuid:patient-sarah-johnson"
        },
        "participant": [
          {
            "type": [
              {
                "coding": [
                  {
                    "system": "http://terminology.hl7.org/CodeSystem/v3-ParticipationType",
                    "code": "PPRF",
                    "display": "primary performer"
                  }
                ]
              }
            ],
            "individual": {
              "reference": "urn:uuid:practitioner-fp-provider"
            }
          }
        ],
        "period": {
          "start": "2025-01-15T10:00:00Z",
          "end": "2025-01-15T10:45:00Z"
        },
        "reasonCode": [
          {
            "coding": [
              {
                "system": "http://hl7.org/fhir/sid/icd-10-cm",
                "code": "Z30.09",
                "display": "Encounter for initial prescription of contraceptives"
              }
            ]
          }
        ],
        "serviceProvider": {
          "reference": "urn:uuid:organization-seattle-fp-clinic"
        }
      }
    },
    {
      "fullUrl": "urn:uuid:observation-pregnancy-test",
      "resource": {
        "resourceType": "Observation",
        "id": "observation-pregnancy-test",
        "status": "final",
        "category": [
          {
            "coding": [
              {
                "system": "http://terminology.hl7.org/CodeSystem/observation-category",
                "code": "laboratory",
                "display": "Laboratory"
              }
            ]
          }
        ],
        "code": {
          "coding": [
            {
              "system": "http://www.ama-assn.org/go/cpt",
              "code": "81025",
              "display": "Urine pregnancy test, by visual color comparison methods"
            },
            {
              "system": "http://loinc.org",
              "code": "2106-3",
              "display": "Choriogonadotropin (pregnancy test) [Presence] in Urine"
            }
          ]
        },
        "subject": {
          "reference": "urn:uuid:patient-sarah-johnson"
        },
        "encounter": {
          "reference": "urn:uuid:encounter-family-planning-visit"
        },
        "effectiveDateTime": "2025-01-15T10:15:00Z",
        "valueCodeableConcept": {
          "coding": [
            {
              "system": "http://snomed.info/sct",
              "code": "260385009",
              "display": "Negative"
            }
          ]
        }
      }
    },
    {
      "fullUrl": "urn:uuid:observation-sti-screening",
      "resource": {
        "resourceType": "Observation",
        "id": "observation-sti-screening",
        "status": "final",
        "category": [
          {
            "coding": [
              {
                "system": "http://terminology.hl7.org/CodeSystem/observation-category",
                "code": "laboratory",
                "display": "Laboratory"
              }
            ]
          }
        ],
        "code": {
          "coding": [
            {
              "system": "http://www.ama-assn.org/go/cpt",
              "code": "87591",
              "display": "Chlamydia trachomatis and Neisseria gonorrhoeae, amplified nucleic acid detection"
            }
          ]
        },
        "subject": {
          "reference": "urn:uuid:patient-sarah-johnson"
        },
        "encounter": {
          "reference": "urn:uuid:encounter-family-planning-visit"
        },
        "effectiveDateTime": "2025-01-15T10:20:00Z",
        "component": [
          {
            "code": {
              "coding": [
                {
                  "system": "http://loinc.org",
                  "code": "21613-5",
                  "display": "Chlamydia trachomatis DNA [Presence] in Specimen by NAA with probe detection"
                }
              ]
            },
            "valueCodeableConcept": {
              "coding": [
                {
                  "system": "http://snomed.info/sct",
                  "code": "260385009",
                  "display": "Negative"
                }
              ]
            }
          },
          {
            "code": {
              "coding": [
                {
                  "system": "http://loinc.org",
                  "code": "21415-5",
                  "display": "Neisseria gonorrhoeae DNA [Presence] in Specimen by NAA with probe detection"
                }
              ]
            },
            "valueCodeableConcept": {
              "coding": [
                {
                  "system": "http://snomed.info/sct",
                  "code": "260385009",
                  "display": "Negative"
                }
              ]
            }
          }
        ]
      }
    },
    {
      "fullUrl": "urn:uuid:medication-request-contraceptive",
      "resource": {
        "resourceType": "MedicationRequest",
        "id": "medication-request-contraceptive",
        "status": "active",
        "intent": "order",
        "medicationCodeableConcept": {
          "coding": [
            {
              "system": "http://www.nlm.nih.gov/research/umls/rxnorm",
              "code": "748856",
              "display": "ethinyl estradiol 0.035 MG / norgestimate 0.25 MG Oral Tablet"
            }
          ],
          "text": "Ethinyl estradiol/norgestimate 0.035mg/0.25mg"
        },
        "subject": {
          "reference": "urn:uuid:patient-sarah-johnson"
        },
        "encounter": {
          "reference": "urn:uuid:encounter-family-planning-visit"
        },
        "authoredOn": "2025-01-15T10:30:00Z",
        "requester": {
          "reference": "urn:uuid:practitioner-fp-provider"
        },
        "reasonCode": [
          {
            "coding": [
              {
                "system": "http://hl7.org/fhir/sid/icd-10-cm",
                "code": "Z30.09",
                "display": "Encounter for initial prescription of contraceptives"
              }
            ]
          }
        ],
        "dosageInstruction": [
          {
            "text": "Take one tablet by mouth daily",
            "timing": {
              "repeat": {
                "frequency": 1,
                "period": 1,
                "periodUnit": "d"
              }
            },
            "route": {
              "coding": [
                {
                  "system": "http://snomed.info/sct",
                  "code": "26643006",
                  "display": "Oral route"
                }
              ]
            }
          }
        ],
        "dispenseRequest": {
          "numberOfRepeatsAllowed": 3,
          "quantity": {
            "value": 84,
            "unit": "tablets",
            "system": "http://terminology.hl7.org/CodeSystem/v3-orderableDrugForm",
            "code": "TAB"
          },
          "expectedSupplyDuration": {
            "value": 84,
            "unit": "days",
            "system": "http://unitsofmeasure.org",
            "code": "d"
          }
        }
      }
    },
    {
      "fullUrl": "urn:uuid:procedure-family-planning-counseling",
      "resource": {
        "resourceType": "Procedure",
        "id": "procedure-family-planning-counseling",
        "status": "completed",
        "category": {
          "coding": [
            {
              "system": "http://snomed.info/sct",
              "code": "386053000",
              "display": "Evaluation procedure"
            }
          ]
        },
        "code": {
          "coding": [
            {
              "system": "http://www.ama-assn.org/go/cpt",
              "code": "99401",
              "display": "Preventive medicine counseling and/or risk factor reduction intervention(s) provided to an individual (separate procedure); approximately 15 minutes"
            }
          ]
        },
        "subject": {
          "reference": "urn:uuid:patient-sarah-johnson"
        },
        "encounter": {
          "reference": "urn:uuid:encounter-family-planning-visit"
        },
        "performedDateTime": "2025-01-15T10:00:00Z",
        "performer": [
          {
            "actor": {
              "reference": "urn:uuid:practitioner-fp-provider"
            }
          }
        ],
        "reasonCode": [
          {
            "coding": [
              {
                "system": "http://hl7.org/fhir/sid/icd-10-cm",
                "code": "Z30.09",
                "display": "Encounter for initial prescription of contraceptives"
              }
            ]
          }
        ]
      }
    },
    {
      "fullUrl": "urn:uuid:procedure-contraceptive-management",
      "resource": {
        "resourceType": "Procedure",
        "id": "procedure-contraceptive-management",
        "status": "completed",
        "category": {
          "coding": [
            {
              "system": "http://snomed.info/sct",
              "code": "386053000",
              "display": "Evaluation procedure"
            }
          ]
        },
        "code": {
          "coding": [
            {
              "system": "http://www.ama-assn.org/go/cpt",
              "code": "99213",
              "display": "Office or other outpatient visit for the evaluation and management of an established patient"
            }
          ]
        },
        "subject": {
          "reference": "urn:uuid:patient-sarah-johnson"
        },
        "encounter": {
          "reference": "urn:uuid:encounter-family-planning-visit"
        },
        "performedDateTime": "2025-01-15T10:15:00Z",
        "performer": [
          {
            "actor": {
              "reference": "urn:uuid:practitioner-fp-provider"
            }
          }
        ],
        "reasonCode": [
          {
            "coding": [
              {
                "system": "http://hl7.org/fhir/sid/icd-10-cm",
                "code": "Z30.09",
                "display": "Encounter for initial prescription of contraceptives"
              }
            ]
          }
        ]
      }
    },
    {
      "fullUrl": "urn:uuid:claim-family-planning-services",
      "resource": {
        "resourceType": "Claim",
        "id": "claim-family-planning-services",
        "status": "active",
        "type": {
          "coding": [
            {
              "system": "http://terminology.hl7.org/CodeSystem/claim-type",
              "code": "professional",
              "display": "Professional"
            }
          ]
        },
        "use": "claim",
        "patient": {
          "reference": "urn:uuid:patient-sarah-johnson"
        },
        "created": "2025-01-15T11:00:00Z",
        "provider": {
          "reference": "urn:uuid:practitioner-fp-provider"
        },
        "priority": {
          "coding": [
            {
              "system": "http://terminology.hl7.org/CodeSystem/processpriority",
              "code": "normal",
              "display": "Normal"
            }
          ]
        },
        "insurance": [
          {
            "sequence": 1,
            "focal": true,
            "coverage": {
              "reference": "urn:uuid:coverage-family-planning-only"
            }
          }
        ],
        "item": [
          {
            "sequence": 1,
            "productOrService": {
              "coding": [
                {
                  "system": "http://www.ama-assn.org/go/cpt",
                  "code": "99401",
                  "display": "Preventive medicine counseling"
                }
              ]
            },
            "servicedDate": "2025-01-15",
            "unitPrice": {
              "currency": "USD"
            },
            "net": {
              "currency": "USD"
            }
          },
          {
            "sequence": 2,
            "productOrService": {
              "coding": [
                {
                  "system": "http://www.ama-assn.org/go/cpt",
                  "code": "99213",
                  "display": "Office visit"
                }
              ]
            },
            "servicedDate": "2025-01-15",
            "unitPrice": {
              "currency": "USD"
            },
            "net": {
              "currency": "USD"
            }
          },
          {
            "sequence": 3,
            "productOrService": {
              "coding": [
                {
                  "system": "http://www.ama-assn.org/go/cpt",
                  "code": "81025",
                  "display": "Pregnancy test"
                }
              ]
            },
            "servicedDate": "2025-01-15",
            "unitPrice": {
              "currency": "USD"
            },
            "net": {
              "currency": "USD"
            }
          },
          {
            "sequence": 4,
            "productOrService": {
              "coding": [
                {
                  "system": "http://www.ama-assn.org/go/cpt",
                  "code": "87591",
                  "display": "STI screening"
                }
              ]
            },
            "servicedDate": "2025-01-15",
            "unitPrice": {
              "currency": "USD"
            },
            "net": {
              "currency": "USD"
            }
          }
        ],
        "total": {
          "currency": "USD"
        }
      }
    }
  ]
}
